Folder: Stress-Strain-Curve

Note: README.md
# Stress-Strain-Curve

aaa.py is plot at -50 degrees
plot2.py is a plot at -196 degrees

File: Tensile Data 50 Deg C.txt
Time        Displacement        Load
sec        mm        kN
14.0957        0.001578002        -0.005451377
16.8848        0.0296813        0.282516
19.6738        0.0529894        0.6331427
22.4629        0.0811527        1.04654
25.252        0.109497        1.50573
28.041        0.137017        2.03546
30.8301        0.16211        2.64354
33.6191        0.18924        3.27678
36.4082        0.21623        3.90924
39.1973        0.241929        4.57693
41.9863        0.268926        5.2923
44.7754        0.296102        6.0374
47.5645        0.32284        6.78562
50.3535        0.350934        7.54247
53.1426        0.374805        8.284
55.9316        0.403061        9.03773
58.7207        0.429788        9.77577
61.5098        0.457633        10.4839
64.2988        0.484035        11.2057
67.0879        0.509034        11.8079
69.877        0.535198        12.3088
72.666        0.564009        12.7915
75.4551        0.590725        13.2257
78.2441        0.616118        13.6741
81.0332        0.643508        14.0928
83.8223        0.671301        14.4859
86.6113        0.696883        14.8595
89.4004        0.72491        15.2001
92.1895        0.751372        15.5143
94.9785        0.77889        15.822
97.7676        0.805882        16.0664
100.557        0.832049        16.3157
103.346        0.860377        16.519
106.135        0.887127        16.7125
108.924        0.912341        16.8892
111.713        0.937235        17.0508
114.502        0.96686        17.2001
117.291        0.993042        17.3564
120.08        1.01937        17.4676
122.869        1.04535        17.6054
125.658        1.07583        17.7254
128.447        1.09803        17.8229
131.236        1.12711        17.968
134.025        1.15216        18.0604
136.814        1.18045        18.1654
139.604        1.2066        18.2733
142.393        1.23374        18.3569
145.182        1.25948        18.4557
147.971        1.28764        18.5445
150.76        1.31391        18.6196
153.549        1.34221        18.7152
156.338        1.36751        18.784
159.127        1.39495        18.8645
161.916        1.41935        18.9431
164.705        1.44827        19.0077
167.494        1.47234        19.0981
170.283        1.50124        19.1533
173.072        1.53021        19.2128
175.861        1.55527        19.287
178.65        1.58141        19.3288
181.439        1.60666        19.3862
184.229        1.63713        19.4668
187.018        1.66337        19.5032
189.807        1.68835        19.5591
192.596        1.7167        19.6058
195.385        1.74228        19.6536
198.174        1.76896        19.7165
200.963        1.79596        19.7529
203.752        1.82339        19.8008
206.541        1.85013        19.8602
209.33        1.87377        19.8958
212.119        1.90269        19.927
214.908        1.92907        19.9688
217.697        1.95515        19.994
220.486        1.98411        20.0407
223.275        2.01119        20.067
226.064        2.03695        20.1049
228.854        2.06287        20.1503
231.643        2.09108        20.1563
234.432        2.11628        20.1959
237.221        2.14478        20.2263
240.01        2.16967        20.235
242.799        2.19794        20.2948
245.588        2.22435        20.3122
248.377        2.25324        20.3279
251.166        2.27792        20.3532
253.955        2.30444        20.3645
256.744        2.33124        20.3953
259.533        2.35895        20.4227
262.322        2.38491        20.4372
265.111        2.41192        20.473
267.9        2.43899        20.4623
270.689        2.46602        20.4812
273.479        2.49314        20.5228
276.268        2.51898        20.511
279.057        2.54543        20.5354
281.846        2.57165        20.5393
284.635        2.59998        20.5555
287.424        2.62659        20.586
290.213        2.6533        20.5812
293.002        2.68067        20.5975
295.791        2.70564        20.6231
298.58        2.73284        20.617
301.369        2.75951        20.6362
304.158        2.78632        20.638
306.947        2.81125        20.646
309.736        2.83902        20.6715
312.525        2.86598        20.6615
315.314        2.89399        20.6727
318.104        2.92024        20.6791
320.893        2.94663        20.6743
323.682        2.97301        20.6895
326.471        3.00069        20.6973
329.26        3.02828        20.6982
332.049        3.05527        20.7012
334.838        3.08144        20.6996
337.627        3.107        20.6945
340.416        3.13276        20.7152
343.205        3.15886        20.6866
345.994        3.18896        20.7108
348.783        3.21587        20.7089
351.572        3.24193        20.6949
354.361        3.26844        20.7138
357.15        3.2946        20.6991
359.939        3.32428        20.6965
362.729        3.35017        20.7057
365.518        3.37549        20.688
368.307        3.40249        20.6936
371.096        3.42879        20.6916
373.885        3.45492        20.6759
376.674        3.48222        20.697
379.463        3.50991        20.6772
382.252        3.53646        20.6739
385.041        3.56357        20.6843
387.83        3.59037        20.66
390.619        3.61731        20.6645
393.408        3.64241        20.656
396.197        3.67117        20.6318
398.986        3.69935        20.6388
401.775        3.72341        20.6189
404.564        3.74989        20.6013
407.354        3.77492        20.6118
410.143        3.80463        20.5881
412.932        3.83115        20.5897
415.721        3.85781        20.5754
418.51        3.88407        20.5497
421.299        3.91167        20.5436
424.088        3.93897        20.5312
426.877        3.96494        20.5061
429.666        3.99156        20.4962
432.455        4.01755        20.457
435.244        4.046        20.4587
438.033        4.07126        20.4337
440.822        4.09916        20.4089
443.611        4.12621        20.3953
446.4        4.15198        20.3634
449.189        4.17928        20.3413
451.979        4.20501        20.3248
454.768        4.2337        20.272
457.557        4.26124        20.2665
460.346        4.28606        20.2268
463.135        4.31308        20.1916
465.924        4.34018        20.1822
468.713        4.36682        20.1401
471.502        4.39283        20.096
474.291        4.41994        20.0745
477.08        4.44707        20.0331
479.869        4.47443        20.006
482.658        4.50025        19.9663
485.447        4.52636        19.9183
488.236        4.5543        19.8897
491.025        4.58034        19.8306
493.814        4.60701        19.8017
496.604        4.6336        19.7626
499.393        4.66043        19.6988
502.182        4.68726        19.6726
504.971        4.71412        19.6252
507.76        4.74078        19.5773
510.549        4.76815        19.5542
513.338        4.79486        19.4874
516.127        4.82174        19.4388
518.916        4.84865        19.3944
521.705        4.87604        19.3232
524.494        4.90286        19.2917
527.283        4.92848        19.2386
530.072        4.95537        19.1634
532.861        4.98236        19.1323
535.65        5.01116        19.0638
538.439        5.0364        19.0192
541.229        5.06265        18.9593
544.018        5.08949        18.8931
546.807        5.11521        18.8397
549.596        5.14325        18.7776
552.385        5.17134        18.7044
555.174        5.19598        18.6514
557.963        5.22198        18.574
560.752        5.2493        18.5025
563.541        5.2768        18.4511
566.33        5.30259        18.3721
569.119        5.3276        18.3087
571.908        5.35721        18.2449
574.697        5.38488        18.1706
577.486        5.40906        18.1111
580.275        5.43807        18.0234
583.064        5.46415        17.9546
585.854        5.49107        17.8853
588.643        5.51743        17.7882
591.432        5.54645        17.7308
594.221        5.57181        17.6466
597.01        5.59623        17.552
599.799        5.62499        17.4803
602.588        5.65251        17.3919
605.377        5.67953        17.2972
608.166        5.70699        17.2322
610.955        5.73286        17.125
613.744        5.75829        17.0449
616.533        5.78739        16.9645
619.322        5.81202        16.84375
622.111        5.8382        16.7613
624.9        5.86632        16.6628
627.689        5.89268        16.5682
630.479        5.92037        16.4847
633.268        5.94626        16.3654
636.057        5.97303        16.2819
638.846        5.99907        16.176
641.635        6.02754        16.0609
644.424        6.05305        15.9767
647.213        6.08008        15.8603
650.002        6.10725        15.7533
652.791        6.13389        15.6396
655.58        6.16268        15.524
658.369        6.18695        15.4088
661.158        6.21404        15.2904
663.947        6.24024        15.1557
666.736        6.26839        15.0594
669.525        6.29304        14.9161
672.314        6.32153        14.8064
675.104        6.34891        14.6936
677.893        6.37445        14.5452
680.682        6.40184        14.4337
683.471        6.42862        14.2891
686.26        6.45433        14.1406
689.049        6.48282        14.0288
691.838        6.5064        13.8758
694.627        6.53357        13.7303
697.416        6.56135        13.6035
700.205        6.58896        13.4384
702.994        6.61559        13.313
705.783        6.64131        13.1498
708.572        6.67035        12.9833
711.361        6.69614        12.8552
714.15        6.72311        12.6862
716.939        6.75079        12.5196
719.729        6.77658        12.3596
722.518        6.80359        12.181
725.307        6.83083        12.0265
728.096        6.85561        11.8449
730.885        6.88335        11.655
733.674        6.9108        11.4978
736.463        6.93715        11.2735
736.762        6.97026        -0.842728